{"trials":[{"trial_type":"one_slider","trial_num":1,"Team_name":"Golden Cobras","Which_Evidence_index":1,"Which_Evidence_word":"late game","Evidence":3,"Max_Evidence":6,"EarlySpeaker_index":1,"EarlySpeaker_word":"would not","LateSpeaker_index":1,"LateSpeaker_word":"would not","TVJEarly":"1","TVJLate":"2"},{"trial_type":"one_slider","trial_num":2,"Team_name":"Golden Cobras","Which_Evidence_index":1,"Which_Evidence_word":"late game","Evidence":3,"Max_Evidence":6,"EarlySpeaker_index":1,"EarlySpeaker_word":"would not","LateSpeaker_index":1,"LateSpeaker_word":"would not","TVJEarly":"1","TVJLate":"2","Prior_Early":0.16,"Prior_Late":0.47},{"trial_type":"one_slider","trial_num":3,"Team_name":"Golden Cobras","Which_Evidence_index":1,"Which_Evidence_word":"late game","Evidence":3,"Max_Evidence":6,"EarlySpeaker_index":1,"EarlySpeaker_word":"would not","LateSpeaker_index":1,"LateSpeaker_word":"would not","TVJEarly":"1","TVJLate":"2","Prior_Early":0.16,"Prior_Late":0.47,"Early_Speaker":0.36},{"trial_type":"one_slider","trial_num":4,"RT":7.136,"Team_name":"Golden Cobras","Which_Evidence_index":1,"Which_Evidence_word":"late game","Evidence":3,"Max_Evidence":6,"EarlySpeaker_index":1,"EarlySpeaker_word":"would not","LateSpeaker_index":1,"LateSpeaker_word":"would not","TVJEarly":"1","TVJLate":"2","Prior_Early":0.16,"Prior_Late":0.47,"Early_Speaker":0.36,"Late_Speaker":0.82},{"trial_type":"one_slider","trial_num":5,"RT":7.136,"Team_name":"White Spiders","Which_Evidence_index":1,"Which_Evidence_word":"late game","Evidence":3,"Max_Evidence":6,"EarlySpeaker_index":0,"EarlySpeaker_word":"would","LateSpeaker_index":0,"LateSpeaker_word":"would","TVJEarly":"1","TVJLate":"0"},{"trial_type":"one_slider","trial_num":6,"RT":7.136,"Team_name":"White Spiders","Which_Evidence_index":1,"Which_Evidence_word":"late game","Evidence":3,"Max_Evidence":6,"EarlySpeaker_index":0,"EarlySpeaker_word":"would","LateSpeaker_index":0,"LateSpeaker_word":"would","TVJEarly":"1","TVJLate":"0","Prior_Early":0.22,"Prior_Late":0.25},{"trial_type":"one_slider","trial_num":7,"RT":7.136,"Team_name":"White Spiders","Which_Evidence_index":1,"Which_Evidence_word":"late game","Evidence":3,"Max_Evidence":6,"EarlySpeaker_index":0,"EarlySpeaker_word":"would","LateSpeaker_index":0,"LateSpeaker_word":"would","TVJEarly":"1","TVJLate":"0","Prior_Early":0.22,"Prior_Late":0.25,"Early_Speaker":0.71},{"trial_type":"one_slider","trial_num":8,"RT":7.558,"Team_name":"White Spiders","Which_Evidence_index":1,"Which_Evidence_word":"late game","Evidence":3,"Max_Evidence":6,"EarlySpeaker_index":0,"EarlySpeaker_word":"would","LateSpeaker_index":0,"LateSpeaker_word":"would","TVJEarly":"1","TVJLate":"0","Prior_Early":0.22,"Prior_Late":0.25,"Early_Speaker":0.71,"Late_Speaker":0.16},{"trial_type":"one_slider","trial_num":9,"RT":7.558,"Team_name":"Silver Tigers","Which_Evidence_index":0,"Which_Evidence_word":"laning phase","Evidence":3,"Max_Evidence":6,"EarlySpeaker_index":0,"EarlySpeaker_word":"would","LateSpeaker_index":1,"LateSpeaker_word":"would not","TVJEarly":"2","TVJLate":"1"},{"trial_type":"one_slider","trial_num":10,"RT":7.558,"Team_name":"Silver Tigers","Which_Evidence_index":0,"Which_Evidence_word":"laning phase","Evidence":3,"Max_Evidence":6,"EarlySpeaker_index":0,"EarlySpeaker_word":"would","LateSpeaker_index":1,"LateSpeaker_word":"would not","TVJEarly":"2","TVJLate":"1","Prior_Early":0.2,"Prior_Late":0.09},{"trial_type":"one_slider","trial_num":11,"RT":7.558,"Team_name":"Silver Tigers","Which_Evidence_index":0,"Which_Evidence_word":"laning phase","Evidence":3,"Max_Evidence":6,"EarlySpeaker_index":0,"EarlySpeaker_word":"would","LateSpeaker_index":1,"LateSpeaker_word":"would not","TVJEarly":"2","TVJLate":"1","Prior_Early":0.2,"Prior_Late":0.09,"Early_Speaker":0.79},{"trial_type":"one_slider","trial_num":12,"RT":9.326,"Team_name":"Silver Tigers","Which_Evidence_index":0,"Which_Evidence_word":"laning phase","Evidence":3,"Max_Evidence":6,"EarlySpeaker_index":0,"EarlySpeaker_word":"would","LateSpeaker_index":1,"LateSpeaker_word":"would not","TVJEarly":"2","TVJLate":"1","Prior_Early":0.2,"Prior_Late":0.09,"Early_Speaker":0.79,"Late_Speaker":0.41},{"trial_type":"one_slider","trial_num":13,"RT":9.326,"Team_name":"Black Eagles","Which_Evidence_index":0,"Which_Evidence_word":"laning phase","Evidence":5,"Max_Evidence":6,"EarlySpeaker_index":1,"EarlySpeaker_word":"would not","LateSpeaker_index":0,"LateSpeaker_word":"would","TVJEarly":"0","TVJLate":"1"},{"trial_type":"one_slider","trial_num":14,"RT":9.326,"Team_name":"Black Eagles","Which_Evidence_index":0,"Which_Evidence_word":"laning phase","Evidence":5,"Max_Evidence":6,"EarlySpeaker_index":1,"EarlySpeaker_word":"would not","LateSpeaker_index":0,"LateSpeaker_word":"would","TVJEarly":"0","TVJLate":"1","Prior_Early":0.18,"Prior_Late":0.14},{"trial_type":"one_slider","trial_num":15,"RT":9.326,"Team_name":"Black Eagles","Which_Evidence_index":0,"Which_Evidence_word":"laning phase","Evidence":5,"Max_Evidence":6,"EarlySpeaker_index":1,"EarlySpeaker_word":"would not","LateSpeaker_index":0,"LateSpeaker_word":"would","TVJEarly":"0","TVJLate":"1","Prior_Early":0.18,"Prior_Late":0.14,"Early_Speaker":0.62},{"trial_type":"one_slider","trial_num":16,"RT":17.224,"Team_name":"Black Eagles","Which_Evidence_index":0,"Which_Evidence_word":"laning phase","Evidence":5,"Max_Evidence":6,"EarlySpeaker_index":1,"EarlySpeaker_word":"would not","LateSpeaker_index":0,"LateSpeaker_word":"would","TVJEarly":"0","TVJLate":"1","Prior_Early":0.18,"Prior_Late":0.14,"Early_Speaker":0.62,"Late_Speaker":0.89},{"trial_type":"one_slider","trial_num":17,"RT":17.224,"Team_name":"Orange Lions","Which_Evidence_index":1,"Which_Evidence_word":"late game","Evidence":5,"Max_Evidence":6,"EarlySpeaker_index":1,"EarlySpeaker_word":"would not","LateSpeaker_index":1,"LateSpeaker_word":"would not","TVJEarly":"1","TVJLate":"2"},{"trial_type":"one_slider","trial_num":18,"RT":17.224,"Team_name":"Orange Lions","Which_Evidence_index":1,"Which_Evidence_word":"late game","Evidence":5,"Max_Evidence":6,"EarlySpeaker_index":1,"EarlySpeaker_word":"would not","LateSpeaker_index":1,"LateSpeaker_word":"would not","TVJEarly":"1","TVJLate":"2","Prior_Early":0.18,"Prior_Late":0.14},{"trial_type":"one_slider","trial_num":19,"RT":17.224,"Team_name":"Orange Lions","Which_Evidence_index":1,"Which_Evidence_word":"late game","Evidence":5,"Max_Evidence":6,"EarlySpeaker_index":1,"EarlySpeaker_word":"would not","LateSpeaker_index":1,"LateSpeaker_word":"would not","TVJEarly":"1","TVJLate":"2","Prior_Early":0.18,"Prior_Late":0.14,"Early_Speaker":0.51},{"trial_type":"one_slider","trial_num":20,"RT":10.852,"Team_name":"Orange Lions","Which_Evidence_index":1,"Which_Evidence_word":"late game","Evidence":5,"Max_Evidence":6,"EarlySpeaker_index":1,"EarlySpeaker_word":"would not","LateSpeaker_index":1,"LateSpeaker_word":"would not","TVJEarly":"1","TVJLate":"2","Prior_Early":0.18,"Prior_Late":0.14,"Early_Speaker":0.51,"Late_Speaker":0.15},{"trial_type":"one_slider","trial_num":21,"RT":10.852,"Team_name":"Iron Sharks","Which_Evidence_index":1,"Which_Evidence_word":"late game","Evidence":1,"Max_Evidence":6,"EarlySpeaker_index":1,"EarlySpeaker_word":"would not","LateSpeaker_index":1,"LateSpeaker_word":"would not","TVJEarly":"1","TVJLate":"1"},{"trial_type":"one_slider","trial_num":22,"RT":10.852,"Team_name":"Iron Sharks","Which_Evidence_index":1,"Which_Evidence_word":"late game","Evidence":1,"Max_Evidence":6,"EarlySpeaker_index":1,"EarlySpeaker_word":"would not","LateSpeaker_index":1,"LateSpeaker_word":"would not","TVJEarly":"1","TVJLate":"1","Prior_Early":0.29,"Prior_Late":0.11},{"trial_type":"one_slider","trial_num":23,"RT":10.852,"Team_name":"Iron Sharks","Which_Evidence_index":1,"Which_Evidence_word":"late game","Evidence":1,"Max_Evidence":6,"EarlySpeaker_index":1,"EarlySpeaker_word":"would not","LateSpeaker_index":1,"LateSpeaker_word":"would not","TVJEarly":"1","TVJLate":"1","Prior_Early":0.29,"Prior_Late":0.11,"Early_Speaker":0.51},{"trial_type":"one_slider","trial_num":24,"RT":9.677,"Team_name":"Iron Sharks","Which_Evidence_index":1,"Which_Evidence_word":"late game","Evidence":1,"Max_Evidence":6,"EarlySpeaker_index":1,"EarlySpeaker_word":"would not","LateSpeaker_index":1,"LateSpeaker_word":"would not","TVJEarly":"1","TVJLate":"1","Prior_Early":0.29,"Prior_Late":0.11,"Early_Speaker":0.51,"Late_Speaker":0.67},{"trial_type":"one_slider","trial_num":25,"RT":9.677,"Team_name":"Red Wolves","Which_Evidence_index":0,"Which_Evidence_word":"laning phase","Evidence":5,"Max_Evidence":6,"EarlySpeaker_index":0,"EarlySpeaker_word":"would","LateSpeaker_index":1,"LateSpeaker_word":"would not","TVJEarly":"0","TVJLate":"1"},{"trial_type":"one_slider","trial_num":26,"RT":9.677,"Team_name":"Red Wolves","Which_Evidence_index":0,"Which_Evidence_word":"laning phase","Evidence":5,"Max_Evidence":6,"EarlySpeaker_index":0,"EarlySpeaker_word":"would","LateSpeaker_index":1,"LateSpeaker_word":"would not","TVJEarly":"0","TVJLate":"1","Prior_Early":0.28,"Prior_Late":0.2},{"trial_type":"one_slider","trial_num":27,"RT":9.677,"Team_name":"Red Wolves","Which_Evidence_index":0,"Which_Evidence_word":"laning phase","Evidence":5,"Max_Evidence":6,"EarlySpeaker_index":0,"EarlySpeaker_word":"would","LateSpeaker_index":1,"LateSpeaker_word":"would not","TVJEarly":"0","TVJLate":"1","Prior_Early":0.28,"Prior_Late":0.2,"Early_Speaker":0.68},{"trial_type":"one_slider","trial_num":28,"RT":7.333,"Team_name":"Red Wolves","Which_Evidence_index":0,"Which_Evidence_word":"laning phase","Evidence":5,"Max_Evidence":6,"EarlySpeaker_index":0,"EarlySpeaker_word":"would","LateSpeaker_index":1,"LateSpeaker_word":"would not","TVJEarly":"0","TVJLate":"1","Prior_Early":0.28,"Prior_Late":0.2,"Early_Speaker":0.68,"Late_Speaker":0.34},{"trial_type":"one_slider","trial_num":29,"RT":7.333,"Team_name":"Gray Jaguars","Which_Evidence_index":1,"Which_Evidence_word":"late game","Evidence":5,"Max_Evidence":6,"EarlySpeaker_index":0,"EarlySpeaker_word":"would","LateSpeaker_index":0,"LateSpeaker_word":"would","TVJEarly":"2","TVJLate":"0"},{"trial_type":"one_slider","trial_num":30,"RT":7.333,"Team_name":"Gray Jaguars","Which_Evidence_index":1,"Which_Evidence_word":"late game","Evidence":5,"Max_Evidence":6,"EarlySpeaker_index":0,"EarlySpeaker_word":"would","LateSpeaker_index":0,"LateSpeaker_word":"would","TVJEarly":"2","TVJLate":"0","Prior_Early":0.32,"Prior_Late":0.5},{"trial_type":"one_slider","trial_num":31,"RT":7.333,"Team_name":"Gray Jaguars","Which_Evidence_index":1,"Which_Evidence_word":"late game","Evidence":5,"Max_Evidence":6,"EarlySpeaker_index":0,"EarlySpeaker_word":"would","LateSpeaker_index":0,"LateSpeaker_word":"would","TVJEarly":"2","TVJLate":"0","Prior_Early":0.32,"Prior_Late":0.5,"Early_Speaker":0.64},{"trial_type":"one_slider","trial_num":32,"RT":7.58,"Team_name":"Gray Jaguars","Which_Evidence_index":1,"Which_Evidence_word":"late game","Evidence":5,"Max_Evidence":6,"EarlySpeaker_index":0,"EarlySpeaker_word":"would","LateSpeaker_index":0,"LateSpeaker_word":"would","TVJEarly":"2","TVJLate":"0","Prior_Early":0.32,"Prior_Late":0.5,"Early_Speaker":0.64,"Late_Speaker":0.17},{"trial_type":"one_slider","trial_num":33,"RT":7.58,"Team_name":"Bronze Bears","Which_Evidence_index":0,"Which_Evidence_word":"laning phase","Evidence":1,"Max_Evidence":6,"EarlySpeaker_index":0,"EarlySpeaker_word":"would","LateSpeaker_index":1,"LateSpeaker_word":"would not","TVJEarly":"1","TVJLate":"1"},{"trial_type":"one_slider","trial_num":34,"RT":7.58,"Team_name":"Bronze Bears","Which_Evidence_index":0,"Which_Evidence_word":"laning phase","Evidence":1,"Max_Evidence":6,"EarlySpeaker_index":0,"EarlySpeaker_word":"would","LateSpeaker_index":1,"LateSpeaker_word":"would not","TVJEarly":"1","TVJLate":"1","Prior_Early":0.08,"Prior_Late":0.13},{"trial_type":"one_slider","trial_num":35,"RT":7.58,"Team_name":"Bronze Bears","Which_Evidence_index":0,"Which_Evidence_word":"laning phase","Evidence":1,"Max_Evidence":6,"EarlySpeaker_index":0,"EarlySpeaker_word":"would","LateSpeaker_index":1,"LateSpeaker_word":"would not","TVJEarly":"1","TVJLate":"1","Prior_Early":0.08,"Prior_Late":0.13,"Early_Speaker":0.66},{"trial_type":"one_slider","trial_num":36,"RT":8.216,"Team_name":"Bronze Bears","Which_Evidence_index":0,"Which_Evidence_word":"laning phase","Evidence":1,"Max_Evidence":6,"EarlySpeaker_index":0,"EarlySpeaker_word":"would","LateSpeaker_index":1,"LateSpeaker_word":"would not","TVJEarly":"1","TVJLate":"1","Prior_Early":0.08,"Prior_Late":0.13,"Early_Speaker":0.66,"Late_Speaker":0.75},{"trial_type":"one_slider","trial_num":37,"RT":8.216,"Team_name":"Yellow Hawks","Which_Evidence_index":0,"Which_Evidence_word":"laning phase","Evidence":1,"Max_Evidence":6,"EarlySpeaker_index":1,"EarlySpeaker_word":"would not","LateSpeaker_index":0,"LateSpeaker_word":"would","TVJEarly":"2","TVJLate":"1"},{"trial_type":"one_slider","trial_num":38,"RT":8.216,"Team_name":"Yellow Hawks","Which_Evidence_index":0,"Which_Evidence_word":"laning phase","Evidence":1,"Max_Evidence":6,"EarlySpeaker_index":1,"EarlySpeaker_word":"would not","LateSpeaker_index":0,"LateSpeaker_word":"would","TVJEarly":"2","TVJLate":"1","Prior_Early":0.53,"Prior_Late":0.12},{"trial_type":"one_slider","trial_num":39,"RT":8.216,"Team_name":"Yellow Hawks","Which_Evidence_index":0,"Which_Evidence_word":"laning phase","Evidence":1,"Max_Evidence":6,"EarlySpeaker_index":1,"EarlySpeaker_word":"would not","LateSpeaker_index":0,"LateSpeaker_word":"would","TVJEarly":"2","TVJLate":"1","Prior_Early":0.53,"Prior_Late":0.12,"Early_Speaker":0.63},{"trial_type":"one_slider","trial_num":40,"RT":7.668,"Team_name":"Yellow Hawks","Which_Evidence_index":0,"Which_Evidence_word":"laning phase","Evidence":1,"Max_Evidence":6,"EarlySpeaker_index":1,"EarlySpeaker_word":"would not","LateSpeaker_index":0,"LateSpeaker_word":"would","TVJEarly":"2","TVJLate":"1","Prior_Early":0.53,"Prior_Late":0.12,"Early_Speaker":0.63,"Late_Speaker":0.59},{"trial_type":"one_slider","trial_num":41,"RT":7.668,"Team_name":"Blue Dragons","Which_Evidence_index":1,"Which_Evidence_word":"late game","Evidence":1,"Max_Evidence":6,"EarlySpeaker_index":0,"EarlySpeaker_word":"would","LateSpeaker_index":0,"LateSpeaker_word":"would","TVJEarly":"1","TVJLate":"1"},{"trial_type":"one_slider","trial_num":42,"RT":7.668,"Team_name":"Blue Dragons","Which_Evidence_index":1,"Which_Evidence_word":"late game","Evidence":1,"Max_Evidence":6,"EarlySpeaker_index":0,"EarlySpeaker_word":"would","LateSpeaker_index":0,"LateSpeaker_word":"would","TVJEarly":"1","TVJLate":"1","Prior_Early":0.45,"Prior_Late":0.33},{"trial_type":"one_slider","trial_num":43,"RT":7.668,"Team_name":"Blue Dragons","Which_Evidence_index":1,"Which_Evidence_word":"late game","Evidence":1,"Max_Evidence":6,"EarlySpeaker_index":0,"EarlySpeaker_word":"would","LateSpeaker_index":0,"LateSpeaker_word":"would","TVJEarly":"1","TVJLate":"1","Prior_Early":0.45,"Prior_Late":0.33,"Early_Speaker":0.59},{"trial_type":"one_slider","trial_num":44,"RT":7.67,"Team_name":"Blue Dragons","Which_Evidence_index":1,"Which_Evidence_word":"late game","Evidence":1,"Max_Evidence":6,"EarlySpeaker_index":0,"EarlySpeaker_word":"would","LateSpeaker_index":0,"LateSpeaker_word":"would","TVJEarly":"1","TVJLate":"1","Prior_Early":0.45,"Prior_Late":0.33,"Early_Speaker":0.59,"Late_Speaker":0.77},{"trial_type":"one_slider","trial_num":45,"RT":7.67,"Team_name":"Green Falcons","Which_Evidence_index":0,"Which_Evidence_word":"laning phase","Evidence":3,"Max_Evidence":6,"EarlySpeaker_index":1,"EarlySpeaker_word":"would not","LateSpeaker_index":0,"LateSpeaker_word":"would","TVJEarly":"2","TVJLate":"1"},{"trial_type":"one_slider","trial_num":46,"RT":7.67,"Team_name":"Green Falcons","Which_Evidence_index":0,"Which_Evidence_word":"laning phase","Evidence":3,"Max_Evidence":6,"EarlySpeaker_index":1,"EarlySpeaker_word":"would not","LateSpeaker_index":0,"LateSpeaker_word":"would","TVJEarly":"2","TVJLate":"1","Prior_Early":0.28,"Prior_Late":0.56},{"trial_type":"one_slider","trial_num":47,"RT":7.67,"Team_name":"Green Falcons","Which_Evidence_index":0,"Which_Evidence_word":"laning phase","Evidence":3,"Max_Evidence":6,"EarlySpeaker_index":1,"EarlySpeaker_word":"would not","LateSpeaker_index":0,"LateSpeaker_word":"would","TVJEarly":"2","TVJLate":"1","Prior_Early":0.28,"Prior_Late":0.56,"Early_Speaker":0.59},{"trial_type":"one_slider","trial_num":48,"RT":8.23,"Team_name":"Green Falcons","Which_Evidence_index":0,"Which_Evidence_word":"laning phase","Evidence":3,"Max_Evidence":6,"EarlySpeaker_index":1,"EarlySpeaker_word":"would not","LateSpeaker_index":0,"LateSpeaker_word":"would","TVJEarly":"2","TVJLate":"1","Prior_Early":0.28,"Prior_Late":0.56,"Early_Speaker":0.59,"Late_Speaker":0.31}],"compcheck":{"trial_type":"compcheck","RT":3.53,"compQuestion0":"How does a team win a game of borfball?","compCorrect0":1,"compResponse0":"0","compQuestion1":"When in a game of borfball do players generally compete in groups?","compCorrect1":1,"compResponse1":"1","compQuestion2":"When in a game of borfball do players generally compete individually?","compCorrect2":0,"compResponse2":"0","compQuestion3":"Can teams potentially excel in both the laning phase and the late game?","compCorrect3":0,"compResponse3":"1"},"system":{"Browser":"Firefox","OS":"Windows","screenH":1080,"screenW":1920},"condition":"CONDITION 1","subject_information":{"language":"test","enjoyment":"1","asses":"No","age":"test","gender":"Female","education":"0","comments":"test","problems":"test","fairprice":"test"},"resemblance":{},"time_in_minutes":2.2520333333333333},